SpectraSuite Data File
++++++++++++++++++++++++++++++++++++
Date: Wed Jul 25 10:38:40 HST 2007
User: guest
Dark Spectrum Present: Yes
Reference Spectrum Present: No
Number of Sampled Component Spectra: 1
Spectrometers: USB4E01242
Integration Time (usec): 100000 (USB4E01242)
Spectra Averaged: 1 (USB4E01242)
Boxcar Smoothing: 10 (USB4E01242)
Correct for Electrical Dark: No (USB4E01242)
Strobe/Lamp Enabled: No (USB4E01242)
Correct for Detector Non-linearity: No (USB4E01242)
Correct for Stray Light: No (USB4E01242)
Number of Pixels in Processed Spectrum: 3648
>>>>>Begin Processed Spectral Data<<<<<	
177.33	0
177.55	0
177.77	0
177.99	0
178.21	0
178.43	0
178.64	0
178.86	0
179.08	0
179.3	0
179.52	0
179.74	0
179.96	0
180.18	0
180.39	0
180.61	0
180.83	0
181.05	0
181.27	0
181.49	0
181.71	0
181.92	0
182.14	0
182.36	0
182.58	0
182.8	0
183.02	0
183.23	0
183.45	0
183.67	0
183.89	0
184.11	0
184.33	0
184.55	0
184.76	0
184.98	0
185.2	0
185.42	0
185.64	0
185.86	0
186.07	0
186.29	0
186.51	0
186.73	0
186.95	0
187.17	0
187.38	0
187.6	0
187.82	0
188.04	0
188.26	0
188.47	0
188.69	0
188.91	0
189.13	0
189.35	0
189.57	0
189.78	0
190	0
190.22	0
190.44	0
190.66	0
190.87	0
191.09	0
191.31	0
191.53	0
191.75	0
191.97	0
192.18	0
192.4	0
192.62	0
192.84	0
193.06	0
193.27	0
193.49	0
193.71	0
193.93	0
194.15	0
194.36	0
194.58	0
194.8	0
195.02	0
195.23	0
195.45	0
195.67	0
195.89	0
196.11	0
196.32	0
196.54	0
196.76	0
196.98	0
197.2	0
197.41	0
197.63	0
197.85	0
198.07	0
198.28	0
198.5	0
198.72	0
198.94	0
199.16	0
199.37	0
199.59	0
199.81	0
200.03	0
200.24	0
200.46	0
200.68	0
200.9	0
201.11	0
201.33	0
201.55	0
201.77	0
201.98	0
202.2	0
202.42	0
202.64	0
202.86	0
203.07	0
203.29	0
203.51	0
203.73	0
203.94	0
204.16	0
204.38	0
204.6	0
204.81	0
205.03	0
205.25	0
205.46	0
205.68	0
205.9	0
206.12	0
206.33	0
206.55	0
206.77	0
206.99	0
207.2	0
207.42	0
207.64	0
207.86	0
208.07	0
208.29	0
208.51	0
208.72	0
208.94	0
209.16	0
209.38	0
209.59	0
209.81	0
210.03	0
210.25	0
210.46	0
210.68	0
210.9	0
211.11	0
211.33	0
211.55	0
211.77	0
211.98	0
212.2	0
212.42	0
212.63	0
212.85	0
213.07	0
213.29	0
213.5	0
213.72	0
213.94	0
214.15	0
214.37	0
214.59	0
214.8	0
215.02	0
215.24	0
215.45	0
215.67	0
215.89	0
216.11	0
216.32	0
216.54	0
216.76	0
216.97	0
217.19	0
217.41	0
217.62	0
217.84	0
218.06	0
218.27	0
218.49	0
218.71	0
218.92	0
219.14	0
219.36	0
219.57	0
219.79	0
220.01	0
220.22	0
220.44	0
220.66	0
220.88	0
221.09	0
221.31	0
221.53	0
221.74	0
221.96	0
222.17	0
222.39	0
222.61	0
222.82	0
223.04	0
223.26	0
223.47	0
223.69	0
223.91	0
224.12	0
224.34	0
224.56	0
224.77	0
224.99	0
225.21	0
225.42	0
225.64	0
225.86	0
226.07	0
226.29	0
226.5	0
226.72	0
226.94	0
227.15	0
227.37	0
227.59	0
227.8	0
228.02	0
228.24	0
228.45	0
228.67	0
228.88	0
229.1	0
229.32	0
229.53	0
229.75	0
229.97	0
230.18	0
230.4	0
230.61	0
230.83	0
231.05	0
231.26	0
231.48	0
231.7	0
231.91	0
232.13	0
232.34	0
232.56	0
232.78	0
232.99	0
233.21	0
233.42	0
233.64	0
233.86	0
234.07	0
234.29	0
234.5	0
234.72	0
234.94	0
235.15	0
235.37	0
235.58	0
235.8	0
236.02	0
236.23	0
236.45	0
236.66	0
236.88	0
237.1	0
237.31	0
237.53	0
237.74	0
237.96	0
238.17	0
238.39	0
238.61	0
238.82	0
239.04	0
239.25	0
239.47	0
239.69	0
239.9	0
240.12	0
240.33	0
240.55	0
240.76	0
240.98	0
241.2	0
241.41	0
241.63	0
241.84	0
242.06	0
242.27	0
242.49	0
242.7	0
242.92	0
243.14	0
243.35	0
243.57	0
243.78	0
244	0
244.21	0
244.43	0
244.64	0
244.86	0
245.08	0
245.29	0
245.51	0
245.72	0
245.94	0
246.15	0
246.37	0
246.58	0
246.8	0
247.01	0
247.23	0
247.45	0
247.66	0
247.88	0
248.09	0
248.31	0
248.52	0
248.74	0
248.95	0
249.17	0
249.38	0
249.6	0
249.81	0
250.03	0
250.24	0
250.46	0
250.67	0
250.89	0
251.1	0
251.32	0
251.53	0
251.75	0
251.97	0
252.18	0
252.4	0
252.61	0
252.83	0
253.04	0
253.26	0
253.47	0
253.69	0
253.9	0
254.12	0
254.33	0
254.55	0
254.76	0
254.98	0
255.19	0
255.41	0
255.62	0
255.84	0
256.05	0
256.27	0
256.48	0
256.7	0
256.91	0
257.13	0
257.34	0
257.55	0
257.77	0
257.98	0
258.2	0
258.41	0
258.63	0
258.84	0
259.06	0
259.27	0
259.49	0
259.7	0
259.92	0
260.13	0
260.35	0
260.56	0
260.78	0
260.99	0
261.21	0
261.42	0
261.63	0
261.85	0
262.06	0
262.28	0
262.49	0
262.71	0
262.92	0
263.14	0
263.35	0
263.57	0
263.78	0
264	0
264.21	0
264.42	0
264.64	0
264.85	0
265.07	0
265.28	0
265.5	0
265.71	0
265.93	0
266.14	0
266.35	0
266.57	0
266.78	0
267	0
267.21	0
267.43	0
267.64	0
267.85	0
268.07	0
268.28	0
268.5	0
268.71	0
268.93	0
269.14	0
269.35	0
269.57	0
269.78	0
270	0
270.21	0
270.43	0
270.64	0
270.85	0
271.07	0
271.28	0
271.5	0
271.71	0
271.92	0
272.14	0
272.35	0
272.57	0
272.78	0
272.99	0
273.21	0
273.42	0
273.64	0
273.85	0
274.07	0
274.28	0
274.49	0
274.71	0
274.92	0
275.13	0
275.35	0
275.56	0
275.78	0
275.99	0
276.2	0
276.42	0
276.63	0
276.85	0
277.06	0
277.27	0
277.49	0
277.7	0
277.92	0
278.13	0
278.34	0
278.56	0
278.77	0
278.98	0
279.2	0
279.41	0
279.63	0
279.84	0
280.05	0
280.27	0
280.48	0
280.69	0
280.91	0
281.12	0
281.33	0
281.55	0
281.76	0
281.98	0
282.19	0
282.4	0
282.62	0
282.83	0
283.04	0
283.26	0
283.47	0
283.68	0
283.9	0
284.11	0
284.32	0
284.54	0
284.75	0
284.96	0
285.18	0
285.39	0
285.6	0
285.82	0
286.03	0
286.24	0
286.46	0
286.67	0
286.88	0
287.1	0
287.31	0
287.52	0
287.74	0
287.95	0
288.16	0
288.38	0
288.59	0
288.8	0
289.02	0
289.23	0
289.44	0
289.66	0
289.87	0
290.08	0
290.3	0
290.51	0
290.72	0
290.94	0
291.15	0
291.36	0
291.57	0
291.79	0
292	0
292.21	0
292.43	0
292.64	0
292.85	0
293.07	0
293.28	0
293.49	0
293.7	0
293.92	0
294.13	0
294.34	0
294.56	0
294.77	0
294.98	0
295.2	0
295.41	0
295.62	0
295.83	0
296.05	0
296.26	0
296.47	0
296.69	0
296.9	0
297.11	0
297.32	0
297.54	0
297.75	0
297.96	0
298.17	0
298.39	0
298.6	0
298.81	0
299.03	0
299.24	0
299.45	0
299.66	0
299.88	0
300.09	-0.015888
300.3	-0.020017
300.51	-0.010064
300.73	-0.020203
300.94	-0.015621
301.15	-0.012253
301.36	-0.021392
301.58	-0.017838
301.79	-0.0023045
302	-0.015477
302.21	-0.017268
302.43	-0.0090743
302.64	-0.0179
302.85	-0.0094501
303.06	-0.020932
303.28	-0.010716
303.49	-0.018263
303.7	-0.0049768
303.91	-0.016134
304.13	-0.018942
304.34	-0.013989
304.55	-0.0043602
304.76	-0.020768
304.98	-0.016994
305.19	-0.0071097
305.4	-0.019564
305.61	-0.0099028
305.82	-0.016321
306.04	-0.0083442
306.25	-0.019832
306.46	-0.0058335
306.67	-0.017311
306.89	-0.01537
307.1	-0.0087323
307.31	-0.0099827
307.52	-0.012923
307.74	-0.0046645
307.95	-0.0046826
308.16	-0.02139
308.37	-0.010396
308.58	-0.01276
308.8	-0.0062203
309.01	-0.0092199
309.22	-0.020403
309.43	-0.01602
309.64	-0.0076336
309.86	-0.0011537
310.07	-0.010523
310.28	-0.0072887
310.49	-0.0062047
310.7	-0.015352
310.92	-0.0055093
311.13	-0.011196
311.34	-0.0091133
311.55	-0.0078871
311.76	-0.0095223
311.98	0.0020115
312.19	-0.010444
312.4	-0.016181
312.61	-0.013771
312.82	-0.0084732
313.04	-0.016913
313.25	-0.0080996
313.46	-0.015047
313.67	-0.0144
313.88	-0.01216
314.1	-0.015419
314.31	-0.015369
314.52	-0.015533
314.73	-0.013445
314.94	-0.0063008
315.16	-0.0044635
315.37	0.0029026
315.58	-0.012983
315.79	-0.0050633
316	-0.0021313
316.21	0.0027588
316.43	-0.013815
316.64	-0.0081984
316.85	-0.010566
317.06	-0.0015961
317.27	0.0035159
317.48	-0.0060686
317.7	-0.0035772
317.91	-0.0054437
318.12	0.0036333
318.33	-0.0074708
318.54	-0.004584
318.75	-0.001755
318.97	0.0063663
319.18	-0.0014569
319.39	-0.0038914
319.6	-0.0032228
319.81	0.0024247
320.02	-0.0059672
320.24	-0.0063536
320.45	-0.0015004
320.66	-0.012076
320.87	-0.0039432
321.08	0.003279
321.29	0.0026312
321.5	-0.0056381
321.72	-0.0071867
321.93	0.0072589
322.14	-0.0018476
322.35	0.0077108
322.56	0.0085911
322.77	0.011645
322.98	0.0011884
323.2	0.010699
323.41	-0.003761
323.62	-0.0048802
323.83	0.0036041
324.04	-0.0037878
324.25	-0.0038563
324.46	0.0018524
324.67	0.0045111
324.89	0.001346
325.1	-0.00067549
325.31	0.012247
325.52	0.0063048
325.73	-0.0010915
325.94	0.0018154
326.15	-0.0072581
326.36	0.0097598
326.58	0.013127
326.79	0.011025
327	-0.010528
327.21	0.0092076
327.42	0.0072686
327.63	0.00735
327.84	0.0040022
328.05	0.012996
328.26	-0.0060986
328.48	0.00689
328.69	0.011587
328.9	0.0054217
329.11	0.0051196
329.32	0.0057218
329.53	-0.00039145
329.74	0.0047796
329.95	0.012324
330.16	0.0084051
330.37	0.0030955
330.59	0.021674
330.8	0.010471
331.01	0.011623
331.22	0.010609
331.43	0.0019901
331.64	0.0013042
331.85	0.017802
332.06	0.015229
332.27	0.0020147
332.48	0.013184
332.69	0.018202
332.91	0.011197
333.12	0.0098143
333.33	0.024673
333.54	0.003819
333.75	-0.00032206
333.96	0.0043982
334.17	0.0020956
334.38	0.0041355
334.59	0.011916
334.8	0.013702
335.01	0.011676
335.22	0.0065823
335.43	0.0050069
335.64	0.0076267
335.86	0.011502
336.07	0.011072
336.28	-0.0013626
336.49	0.013004
336.7	0.0037598
336.91	0.0049703
337.12	0.0024438
337.33	0.018238
337.54	0.0079458
337.75	0.0050354
337.96	0.015399
338.17	0.014285
338.38	0.0031198
338.59	0.017063
338.8	0.00062833
339.01	0.01817
339.22	0.016102
339.43	0.017526
339.65	0.010702
339.86	0.0050112
340.07	0.0046201
340.28	0.013096
340.49	0.012352
340.7	0.014853
340.91	0.0051267
341.12	0.0013726
341.33	0.011014
341.54	0.015449
341.75	0.0065523
341.96	0.0097399
342.17	0.013635
342.38	0.0085004
342.59	0.011802
342.8	0.0039115
343.01	0.010421
343.22	0.0092225
343.43	0.0065234
343.64	0.0037085
343.85	0.011903
344.06	-0.0010312
344.27	0.010406
344.48	0.018975
344.69	0.011597
344.9	0.01461
345.11	0.00957
345.32	0.0077436
345.53	-0.0016917
345.74	0.015646
345.95	0.0034139
346.16	0.011303
346.37	0.011054
346.58	0.010495
346.79	0.0035249
347	0.014835
347.21	0.016092
347.42	0.0075575
347.63	0.0018704
347.84	0.011668
348.05	0.01631
348.26	0.010314
348.47	0.013522
348.68	0.012241
348.89	0.0009065
349.1	0.0089771
349.31	0.011544
349.52	0.0061476
349.73	0.0093654
349.94	0.010141
350.15	0.0029354
350.36	0.017985
350.57	0.014501
350.78	0.015985
350.99	0.015274
351.2	0.0086823
351.41	0.014298
351.62	0.0091768
351.83	0.010079
352.04	0.0092581
352.25	0.015415
352.46	0.01071
352.67	0.0067445
352.88	0.020453
353.09	-0.0010007
353.3	0.0096706
353.51	0.011145
353.72	0.019292
353.93	0.0099307
354.14	0.0053096
354.35	0.019179
354.56	0.010093
354.77	0.023127
354.98	0.002596
355.19	0.0093114
355.39	0.01166
355.6	0.0092183
355.81	0.014296
356.02	0.017174
356.23	0.0049177
356.44	0.0024657
356.65	0.015506
356.86	0.0080689
357.07	0.0062257
357.28	0.0146
357.49	0.010025
357.7	0.013697
357.91	0.0032402
358.12	0.0030521
358.33	0.011286
358.54	0.013721
358.75	0.008143
358.96	0.013926
359.16	-0.00013757
359.37	0.016997
359.58	0.011679
359.79	0.008183
360	0.0090267
360.21	0.0099612
360.42	0.007767
360.63	0.027377
360.84	0.017503
361.05	0.0016317
361.26	0.011787
361.47	0.020733
361.68	0.011758
361.88	0.017059
362.09	0.010534
362.3	0.016544
362.51	0.013173
362.72	0.024545
362.93	0.014071
363.14	0.016267
363.35	0.013481
363.56	0.011855
363.77	0.023389
363.98	0.019126
364.18	0.025797
364.39	0.022875
364.6	0.017434
364.81	0.019681
365.02	0.02132
365.23	0.022787
365.44	0.022745
365.65	0.02057
365.86	0.0097614
366.07	0.026992
366.27	0.019336
366.48	0.023128
366.69	0.019679
366.9	0.026218
367.11	0.022976
367.32	0.024608
367.53	0.018307
367.74	0.014716
367.95	0.014933
368.15	0.018641
368.36	0.023659
368.57	0.010242
368.78	0.028847
368.99	0.016921
369.2	0.01551
369.41	0.02206
369.62	0.018188
369.82	0.027369
370.03	0.018853
370.24	0.022701
370.45	0.01834
370.66	0.013139
370.87	0.013737
371.08	0.016234
371.28	0.016567
371.49	0.017147
371.7	0.016295
371.91	0.017402
372.12	0.011647
372.33	0.012047
372.54	0.017427
372.74	0.01665
372.95	0.0059754
373.16	0.020118
373.37	0.02264
373.58	0.0078019
373.79	0.020622
374	0.016359
374.2	0.026811
374.41	0.024722
374.62	0.017812
374.83	0.017234
375.04	0.019183
375.25	0.020273
375.45	0.0049977
375.66	0.021957
375.87	0.020577
376.08	0.025109
376.29	0.023578
376.5	0.021875
376.7	0.019598
376.91	0.025534
377.12	0.026004
377.33	0.014073
377.54	0.016835
377.75	0.025447
377.95	0.019044
378.16	0.021777
378.37	0.015455
378.58	0.024893
378.79	0.011037
379	0.026454
379.2	0.01695
379.41	0.021773
379.62	0.024647
379.83	0.01906
380.04	0.02132
380.24	0.016735
380.45	0.010083
380.66	0.012463
380.87	0.016997
381.08	0.01843
381.28	0.010024
381.49	0.016457
381.7	0.0090682
381.91	0.011675
382.12	0.016134
382.32	0.0094649
382.53	0.015217
382.74	0.0065912
382.95	0.010333
383.16	0.013485
383.36	0.0011021
383.57	0.012273
383.78	0.016081
383.99	0.0074475
384.2	0.010108
384.4	0.010846
384.61	0.017442
384.82	0.019646
385.03	0.013505
385.23	0.015866
385.44	0.015879
385.65	0.019491
385.86	0.01035
386.07	0.027178
386.27	0.0062968
386.48	0.0145
386.69	0.020094
386.9	0.0019507
387.1	0.012531
387.31	0.019745
387.52	0.012457
387.73	0.017033
387.94	0.022098
388.14	0.0087807
388.35	0.013873
388.56	0.029754
388.77	0.021556
388.97	0.021922
389.18	0.027765
389.39	0.017903
389.6	0.020825
389.8	0.028601
390.01	0.025166
390.22	0.024782
390.43	0.014602
390.63	0.018598
390.84	0.018131
391.05	0.030077
391.26	0.019966
391.46	0.018359
391.67	0.018568
391.88	0.010037
392.09	0.00986
392.29	0.021212
392.5	0.013598
392.71	0.017606
392.92	0.019819
393.12	0.01833
393.33	0.022912
393.54	0.015406
393.74	0.010367
393.95	0.013746
394.16	0.021734
394.37	0.015404
394.57	0.015758
394.78	0.020887
394.99	0.016324
395.19	0.01502
395.4	0.013984
395.61	0.013441
395.82	0.021577
396.02	0.014925
396.23	0.020817
396.44	0.021839
396.65	0.017061
396.85	0.02462
397.06	0.021001
397.27	0.024267
397.47	0.028827
397.68	0.023691
397.89	0.020307
398.09	0.017942
398.3	0.024804
398.51	0.018309
398.72	0.024495
398.92	0.031673
399.13	0.032196
399.34	0.037041
399.54	0.037555
399.75	0.033967
399.96	0.02709
400.16	0.026736
400.37	0.034906
400.58	0.033379
400.78	0.035938
400.99	0.032036
401.2	0.039388
401.41	0.036536
401.61	0.029288
401.82	0.035575
402.03	0.029807
402.23	0.029355
402.44	0.038271
402.65	0.03301
402.85	0.034404
403.06	0.034998
403.27	0.037665
403.47	0.035718
403.68	0.030921
403.89	0.037655
404.09	0.03249
404.3	0.026984
404.51	0.037751
404.71	0.036559
404.92	0.042042
405.13	0.025118
405.33	0.030727
405.54	0.032036
405.75	0.034405
405.95	0.032783
406.16	0.022969
406.37	0.03314
406.57	0.033551
406.78	0.036276
406.99	0.034359
407.19	0.0375
407.4	0.041454
407.6	0.038066
407.81	0.03649
408.02	0.029572
408.22	0.031547
408.43	0.039122
408.64	0.036195
408.84	0.034771
409.05	0.026658
409.26	0.038271
409.46	0.040784
409.67	0.032777
409.87	0.037138
410.08	0.034756
410.29	0.04313
410.49	0.027874
410.7	0.038033
410.91	0.034945
411.11	0.040923
411.32	0.037089
411.52	0.029007
411.73	0.040772
411.94	0.039087
412.14	0.041921
412.35	0.035927
412.56	0.042396
412.76	0.04172
412.97	0.035946
413.17	0.039507
413.38	0.044476
413.59	0.034762
413.79	0.037346
414	0.0407
414.2	0.04322
414.41	0.033318
414.62	0.040629
414.82	0.036193
415.03	0.030991
415.23	0.041351
415.44	0.033211
415.65	0.039911
415.85	0.032998
416.06	0.04163
416.26	0.038984
416.47	0.0404
416.68	0.044553
416.88	0.046905
417.09	0.028272
417.29	0.038879
417.5	0.042547
417.71	0.04047
417.91	0.038213
418.12	0.037374
418.32	0.04467
418.53	0.043715
418.73	0.037259
418.94	0.037905
419.15	0.036411
419.35	0.047058
419.56	0.041317
419.76	0.03266
419.97	0.046839
420.17	0.041396
420.38	0.029299
420.59	0.04372
420.79	0.044678
421	0.037973
421.2	0.028834
421.41	0.036733
421.61	0.033698
421.82	0.038279
422.02	0.035895
422.23	0.024332
422.44	0.043066
422.64	0.033199
422.85	0.035433
423.05	0.036391
423.26	0.038073
423.46	0.03632
423.67	0.033586
423.87	0.034415
424.08	0.032174
424.29	0.032203
424.49	0.039604
424.7	0.028775
424.9	0.038366
425.11	0.038904
425.31	0.036869
425.52	0.040566
425.72	0.033336
425.93	0.036294
426.13	0.032091
426.34	0.033708
426.54	0.034065
426.75	0.035471
426.95	0.035902
427.16	0.036815
427.36	0.035683
427.57	0.030924
427.78	0.030063
427.98	0.030508
428.19	0.032529
428.39	0.027627
428.6	0.028971
428.8	0.0305
429.01	0.034451
429.21	0.023396
429.42	0.039029
429.62	0.036633
429.83	0.031658
430.03	0.02578
430.24	0.035479
430.44	0.027274
430.65	0.033137
430.85	0.034161
431.06	0.028001
431.26	0.036116
431.47	0.02524
431.67	0.041167
431.88	0.036053
432.08	0.03771
432.29	0.037321
432.49	0.031454
432.7	0.031336
432.9	0.041026
433.11	0.038733
433.31	0.02585
433.52	0.035217
433.72	0.031832
433.93	0.035719
434.13	0.034715
434.34	0.044383
434.54	0.03291
434.74	0.035932
434.95	0.038019
435.15	0.035023
435.36	0.037784
435.56	0.032714
435.77	0.039632
435.97	0.032235
436.18	0.049854
436.38	0.041501
436.59	0.037564
436.79	0.044925
437	0.042955
437.2	0.039741
437.41	0.038499
437.61	0.042109
437.81	0.041001
438.02	0.040232
438.22	0.04327
438.43	0.035089
438.63	0.047976
438.84	0.038438
439.04	0.039524
439.25	0.041447
439.45	0.036359
439.66	0.0375
439.86	0.038892
440.06	0.048824
440.27	0.039584
440.47	0.034837
440.68	0.046142
440.88	0.041411
441.09	0.046716
441.29	0.045203
441.49	0.043903
441.7	0.049855
441.9	0.045457
442.11	0.048516
442.31	0.052413
442.52	0.044962
442.72	0.044541
442.92	0.03864
443.13	0.047676
443.33	0.036403
443.54	0.044353
443.74	0.043174
443.95	0.048843
444.15	0.044902
444.35	0.049324
444.56	0.043177
444.76	0.039055
444.97	0.05294
445.17	0.047807
445.37	0.055487
445.58	0.04345
445.78	0.046385
445.99	0.039777
446.19	0.040075
446.39	0.041796
446.6	0.037393
446.8	0.03842
447.01	0.046674
447.21	0.052153
447.41	0.042344
447.62	0.050572
447.82	0.046934
448.03	0.049813
448.23	0.048836
448.43	0.049997
448.64	0.052141
448.84	0.05112
449.05	0.047669
449.25	0.052255
449.45	0.046449
449.66	0.048547
449.86	0.049852
450.07	0.044116
450.27	0.049278
450.47	0.046385
450.68	0.049454
450.88	0.046198
451.08	0.048601
451.29	0.050937
451.49	0.051124
451.7	0.049226
451.9	0.051643
452.1	0.050406
452.31	0.042979
452.51	0.051356
452.71	0.049191
452.92	0.047329
453.12	0.052399
453.32	0.047475
453.53	0.038152
453.73	0.039412
453.93	0.040511
454.14	0.051137
454.34	0.048818
454.55	0.05159
454.75	0.049098
454.95	0.044098
455.16	0.054851
455.36	0.046373
455.56	0.056687
455.77	0.053776
455.97	0.050422
456.17	0.046858
456.38	0.050733
456.58	0.056248
456.78	0.048454
456.99	0.042399
457.19	0.048294
457.39	0.048175
457.6	0.051138
457.8	0.049444
458	0.04771
458.21	0.054402
458.41	0.053199
458.61	0.04867
458.82	0.047544
459.02	0.044597
459.22	0.056631
459.43	0.053098
459.63	0.050044
459.83	0.046111
460.03	0.048887
460.24	0.052299
460.44	0.046195
460.64	0.04237
460.85	0.049927
461.05	0.049157
461.25	0.050444
461.46	0.047557
461.66	0.044242
461.86	0.049623
462.07	0.052506
462.27	0.050115
462.47	0.05477
462.67	0.04887
462.88	0.052082
463.08	0.04355
463.28	0.049699
463.49	0.054107
463.69	0.050497
463.89	0.052126
464.09	0.052759
464.3	0.048487
464.5	0.054837
464.7	0.05545
464.91	0.043871
465.11	0.04479
465.31	0.045736
465.51	0.051536
465.72	0.048623
465.92	0.048776
466.12	0.04436
466.33	0.050749
466.53	0.048664
466.73	0.045676
466.93	0.051217
467.14	0.04528
467.34	0.057602
467.54	0.050764
467.74	0.051778
467.95	0.049864
468.15	0.046831
468.35	0.051508
468.55	0.054143
468.76	0.053681
468.96	0.043249
469.16	0.051275
469.37	0.050742
469.57	0.051147
469.77	0.046564
469.97	0.050618
470.18	0.053193
470.38	0.054749
470.58	0.051158
470.78	0.053471
470.99	0.052281
471.19	0.048693
471.39	0.051809
471.59	0.045537
471.79	0.049592
472	0.050941
472.2	0.053566
472.4	0.04846
472.6	0.048504
472.81	0.056214
473.01	0.053916
473.21	0.048833
473.41	0.042126
473.62	0.053545
473.82	0.056466
474.02	0.04964
474.22	0.050348
474.42	0.05925
474.63	0.053558
474.83	0.050405
475.03	0.051379
475.23	0.053273
475.44	0.050162
475.64	0.051846
475.84	0.053695
476.04	0.051162
476.24	0.051936
476.45	0.052898
476.65	0.049801
476.85	0.049233
477.05	0.053775
477.25	0.055603
477.46	0.052218
477.66	0.050805
477.86	0.054814
478.06	0.054746
478.26	0.054681
478.47	0.052984
478.67	0.059072
478.87	0.052371
479.07	0.048776
479.27	0.053621
479.47	0.055428
479.68	0.054604
479.88	0.055515
480.08	0.05436
480.28	0.055873
480.48	0.055615
480.69	0.056944
480.89	0.054198
481.09	0.054453
481.29	0.059509
481.49	0.046469
481.69	0.056192
481.9	0.053612
482.1	0.055247
482.3	0.059045
482.5	0.056636
482.7	0.053201
482.9	0.053788
483.11	0.053781
483.31	0.054119
483.51	0.047167
483.71	0.048823
483.91	0.050147
484.11	0.050466
484.32	0.050734
484.52	0.052531
484.72	0.052127
484.92	0.051362
485.12	0.051179
485.32	0.050529
485.52	0.050398
485.73	0.046581
485.93	0.045552
486.13	0.046554
486.33	0.047852
486.53	0.049885
486.73	0.050711
486.93	0.049174
487.14	0.054208
487.34	0.053318
487.54	0.052707
487.74	0.055039
487.94	0.047261
488.14	0.053339
488.34	0.052917
488.54	0.05189
488.75	0.051212
488.95	0.052474
489.15	0.051384
489.35	0.050294
489.55	0.051006
489.75	0.052921
489.95	0.051363
490.15	0.051527
490.36	0.053767
490.56	0.051934
490.76	0.055247
490.96	0.053794
491.16	0.054502
491.36	0.053148
491.56	0.052568
491.76	0.047424
491.96	0.0531
492.17	0.052272
492.37	0.053915
492.57	0.055886
492.77	0.05586
492.97	0.058814
493.17	0.056
493.37	0.055087
493.57	0.054043
493.77	0.053628
493.97	0.058006
494.17	0.054191
494.38	0.055332
494.58	0.053193
494.78	0.053669
494.98	0.0532
495.18	0.055638
495.38	0.05515
495.58	0.056487
495.78	0.056256
495.98	0.058193
496.18	0.05716
496.38	0.054231
496.58	0.050368
496.78	0.056707
496.99	0.052258
497.19	0.056251
497.39	0.057797
497.59	0.055371
497.79	0.051744
497.99	0.055189
498.19	0.056389
498.39	0.057083
498.59	0.053643
498.79	0.053013
498.99	0.0528
499.19	0.055256
499.39	0.055625
499.59	0.053235
499.79	0.053712
499.99	0.053725
500.19	0.057195
500.4	0.053875
500.6	0.056303
500.8	0.055714
501	0.054497
501.2	0.053367
501.4	0.057707
501.6	0.054468
501.8	0.054376
502	0.056518
502.2	0.054369
502.4	0.054267
502.6	0.050802
502.8	0.057992
503	0.055679
503.2	0.053349
503.4	0.051727
503.6	0.053313
503.8	0.056534
504	0.054317
504.2	0.056935
504.4	0.056121
504.6	0.058514
504.8	0.058407
505	0.057528
505.2	0.059998
505.4	0.05786
505.6	0.056734
505.8	0.058367
506	0.058222
506.2	0.057331
506.4	0.057403
506.6	0.057271
506.8	0.055177
507	0.057735
507.2	0.05891
507.4	0.06092
507.6	0.057686
507.8	0.059289
508	0.059758
508.2	0.0625
508.4	0.06019
508.6	0.057037
508.8	0.05503
509	0.062527
509.2	0.059516
509.4	0.057943
509.6	0.059489
509.8	0.057579
510	0.062111
510.2	0.061125
510.4	0.062075
510.6	0.05924
510.8	0.058002
511	0.05736
511.2	0.062897
511.4	0.058752
511.6	0.059331
511.8	0.06004
512	0.059868
512.2	0.061336
512.4	0.058799
512.6	0.059969
512.8	0.060386
513	0.062792
513.2	0.061551
513.4	0.059416
513.59	0.058035
513.79	0.061273
513.99	0.059883
514.19	0.060703
514.39	0.058773
514.59	0.061468
514.79	0.058839
514.99	0.05842
515.19	0.060004
515.39	0.060755
515.59	0.06133
515.79	0.056225
515.99	0.062608
516.19	0.061751
516.39	0.060473
516.59	0.061664
516.79	0.064495
516.98	0.059087
517.18	0.063825
517.38	0.062964
517.58	0.063194
517.78	0.062981
517.98	0.06355
518.18	0.064891
518.38	0.070298
518.58	0.066236
518.78	0.065737
518.98	0.066143
519.18	0.068386
519.38	0.071239
519.57	0.070151
519.77	0.06782
519.97	0.071545
520.17	0.070488
520.37	0.070522
520.57	0.07298
520.77	0.074039
520.97	0.07355
521.17	0.072567
521.37	0.075631
521.57	0.07764
521.76	0.074156
521.96	0.077305
522.16	0.075895
522.36	0.079914
522.56	0.073736
522.76	0.076834
522.96	0.080581
523.16	0.078134
523.36	0.080909
523.55	0.07726
523.75	0.078327
523.95	0.078461
524.15	0.076063
524.35	0.078127
524.55	0.078837
524.75	0.081055
524.95	0.081939
525.14	0.079849
525.34	0.078862
525.54	0.076161
525.74	0.079008
525.94	0.079855
526.14	0.082846
526.34	0.082293
526.54	0.08513
526.73	0.080244
526.93	0.084749
527.13	0.085109
527.33	0.085762
527.53	0.087792
527.73	0.084999
527.93	0.087936
528.12	0.083481
528.32	0.08592
528.52	0.089996
528.72	0.091249
528.92	0.088361
529.12	0.088043
529.32	0.089515
529.51	0.091077
529.71	0.091404
529.91	0.091229
530.11	0.093655
530.31	0.097084
530.51	0.092408
530.7	0.092052
530.9	0.094975
531.1	0.092926
531.3	0.094914
531.5	0.09406
531.7	0.095043
531.89	0.09176
532.09	0.092782
532.29	0.09184
532.49	0.095974
532.69	0.094341
532.88	0.093638
533.08	0.090755
533.28	0.093693
533.48	0.097715
533.68	0.095281
533.88	0.10013
534.07	0.098861
534.27	0.098229
534.47	0.10048
534.67	0.094323
534.87	0.099382
535.06	0.099113
535.26	0.096795
535.46	0.095511
535.66	0.10356
535.86	0.097696
536.05	0.097226
536.25	0.099022
536.45	0.10013
536.65	0.099745
536.85	0.097916
537.04	0.10053
537.24	0.10484
537.44	0.09612
537.64	0.09402
537.83	0.1007
538.03	0.10147
538.23	0.10441
538.43	0.10326
538.63	0.098494
538.82	0.10075
539.02	0.10115
539.22	0.10373
539.42	0.1002
539.61	0.10358
539.81	0.10442
540.01	0.10028
540.21	0.10294
540.41	0.10142
540.6	0.10246
540.8	0.10232
541	0.10228
541.2	0.10554
541.39	0.10449
541.59	0.10366
541.79	0.10429
541.99	0.10804
542.18	0.10533
542.38	0.10463
542.58	0.10429
542.78	0.10609
542.97	0.10132
543.17	0.10558
543.37	0.10238
543.57	0.10746
543.76	0.1114
543.96	0.1087
544.16	0.10489
544.36	0.10714
544.55	0.11224
544.75	0.1091
544.95	0.11149
545.14	0.10313
545.34	0.1114
545.54	0.10677
545.74	0.10825
545.93	0.11154
546.13	0.11001
546.33	0.10657
546.53	0.10563
546.72	0.112
546.92	0.11207
547.12	0.10861
547.31	0.11183
547.51	0.10945
547.71	0.11388
547.91	0.11282
548.1	0.10647
548.3	0.10913
548.5	0.11508
548.69	0.1131
548.89	0.112
549.09	0.11261
549.29	0.11075
549.48	0.11997
549.68	0.10974
549.88	0.11559
550.07	0.11755
550.27	0.11649
550.47	0.098186
550.66	0.1223
550.86	0.11199
551.06	0.12152
551.25	0.11508
551.45	0.12105
551.65	0.12177
551.85	0.12484
552.04	0.11388
552.24	0.12005
552.44	0.11678
552.63	0.11606
552.83	0.1204
553.03	0.11448
553.22	0.12385
553.42	0.11773
553.62	0.1256
553.81	0.11823
554.01	0.12282
554.21	0.11661
554.4	0.12072
554.6	0.11864
554.8	0.1213
554.99	0.12078
555.19	0.12048
555.39	0.12153
555.58	0.11748
555.78	0.119
555.98	0.11761
556.17	0.11764
556.37	0.11969
556.56	0.11977
556.76	0.1198
556.96	0.11599
557.15	0.11848
557.35	0.11626
557.55	0.11594
557.74	0.11524
557.94	0.11887
558.14	0.12067
558.33	0.11444
558.53	0.11368
558.73	0.11693
558.92	0.11237
559.12	0.12086
559.31	0.12112
559.51	0.12425
559.71	0.11919
559.9	0.12235
560.1	0.12167
560.3	0.12064
560.49	0.11738
560.69	0.12126
560.88	0.12446
561.08	0.11566
561.28	0.11724
561.47	0.12173
561.67	0.12237
561.86	0.11845
562.06	0.12083
562.26	0.12364
562.45	0.12027
562.65	0.12268
562.84	0.1165
563.04	0.11964
563.24	0.11891
563.43	0.12472
563.63	0.12465
563.82	0.12082
564.02	0.1242
564.22	0.1259
564.41	0.11886
564.61	0.12281
564.8	0.12322
565	0.11977
565.2	0.12562
565.39	0.11744
565.59	0.1147
565.78	0.11989
565.98	0.11428
566.18	0.12311
566.37	0.11982
566.57	0.11808
566.76	0.1161
566.96	0.12234
567.15	0.11654
567.35	0.12424
567.55	0.1191
567.74	0.11982
567.94	0.11605
568.13	0.11979
568.33	0.12359
568.52	0.12293
568.72	0.11915
568.91	0.11773
569.11	0.11824
569.31	0.12409
569.5	0.1166
569.7	0.12098
569.89	0.11898
570.09	0.11742
570.28	0.11534
570.48	0.11787
570.67	0.12258
570.87	0.11455
571.07	0.11448
571.26	0.11972
571.46	0.1181
571.65	0.12007
571.85	0.12203
572.04	0.11878
572.24	0.12443
572.43	0.1182
572.63	0.12298
572.82	0.11851
573.02	0.12299
573.21	0.11879
573.41	0.12175
573.6	0.12588
573.8	0.12317
573.99	0.12062
574.19	0.12674
574.38	0.12236
574.58	0.12435
574.78	0.11868
574.97	0.12482
575.17	0.12302
575.36	0.12045
575.56	0.11749
575.75	0.1258
575.95	0.12025
576.14	0.11768
576.34	0.1246
576.53	0.11903
576.73	0.12083
576.92	0.11623
577.12	0.12592
577.31	0.11333
577.51	0.12647
577.7	0.12169
577.9	0.12189
578.09	0.12441
578.29	0.11951
578.48	0.12639
578.68	0.12146
578.87	0.13013
579.06	0.12036
579.26	0.1245
579.45	0.12085
579.65	0.13075
579.84	0.12414
580.04	0.12798
580.23	0.13026
580.43	0.11981
580.62	0.12585
580.82	0.12601
581.01	0.12309
581.21	0.12274
581.4	0.12106
581.6	0.12708
581.79	0.12848
581.99	0.12237
582.18	0.12247
582.37	0.12565
582.57	0.12555
582.76	0.12906
582.96	0.12948
583.15	0.12805
583.35	0.12744
583.54	0.12784
583.74	0.12632
583.93	0.12241
584.12	0.11955
584.32	0.12929
584.51	0.12578
584.71	0.11977
584.9	0.12144
585.1	0.12296
585.29	0.12387
585.49	0.12517
585.68	0.12791
585.87	0.12519
586.07	0.12383
586.26	0.12269
586.46	0.12299
586.65	0.12067
586.85	0.12319
587.04	0.11444
587.23	0.12451
587.43	0.12169
587.62	0.1117
587.82	0.12101
588.01	0.11571
588.2	0.11737
588.4	0.11244
588.59	0.11733
588.79	0.11859
588.98	0.12149
589.18	0.11714
589.37	0.12137
589.56	0.11383
589.76	0.11121
589.95	0.1214
590.15	0.11713
590.34	0.11255
590.53	0.12101
590.73	0.11602
590.92	0.11616
591.11	0.12084
591.31	0.12008
591.5	0.12352
591.7	0.11998
591.89	0.12586
592.08	0.11771
592.28	0.11557
592.47	0.12422
592.67	0.12231
592.86	0.12231
593.05	0.11538
593.25	0.12257
593.44	0.11876
593.63	0.12505
593.83	0.1183
594.02	0.12651
594.22	0.12615
594.41	0.12978
594.6	0.12309
594.8	0.12403
594.99	0.1243
595.18	0.12363
595.38	0.12175
595.57	0.12361
595.76	0.12586
595.96	0.12408
596.15	0.11778
596.34	0.13224
596.54	0.13046
596.73	0.12693
596.93	0.13023
597.12	0.12584
597.31	0.13067
597.51	0.12696
597.7	0.12862
597.89	0.12626
598.09	0.12441
598.28	0.13597
598.47	0.12561
598.67	0.12785
598.86	0.12317
599.05	0.13299
599.25	0.12866
599.44	0.13174
599.63	0.13549
599.83	0.1281
600.02	0.12895
600.21	0.12925
600.41	0.13107
600.6	0.12396
600.79	0.12928
600.98	0.12901
601.18	0.13603
601.37	0.12575
601.56	0.12725
601.76	0.13954
601.95	0.12832
602.14	0.13097
602.34	0.13119
602.53	0.13737
602.72	0.12974
602.92	0.13515
603.11	0.13126
603.3	0.13547
603.49	0.13063
603.69	0.13957
603.88	0.13419
604.07	0.13788
604.27	0.13387
604.46	0.1287
604.65	0.13498
604.84	0.1339
605.04	0.13776
605.23	0.13533
605.42	0.13536
605.62	0.13802
605.81	0.13296
606	0.13415
606.19	0.13812
606.39	0.13812
606.58	0.13272
606.77	0.13439
606.97	0.12994
607.16	0.13703
607.35	0.13919
607.54	0.13493
607.74	0.14094
607.93	0.14209
608.12	0.1351
608.31	0.13804
608.51	0.13935
608.7	0.13492
608.89	0.13362
609.08	0.12963
609.28	0.13537
609.47	0.13621
609.66	0.13767
609.85	0.13831
610.05	0.13964
610.24	0.1333
610.43	0.13648
610.62	0.13395
610.82	0.13205
611.01	0.13616
611.2	0.13361
611.39	0.13468
611.59	0.13426
611.78	0.13772
611.97	0.13638
612.16	0.14236
612.35	0.13406
612.55	0.13499
612.74	0.13949
612.93	0.13879
613.12	0.13158
613.32	0.13624
613.51	0.13764
613.7	0.13655
613.89	0.13712
614.08	0.13819
614.28	0.13619
614.47	0.13244
614.66	0.13489
614.85	0.13893
615.04	0.13827
615.24	0.14446
615.43	0.13775
615.62	0.1346
615.81	0.13539
616	0.127
616.2	0.1346
616.39	0.13523
616.58	0.13518
616.77	0.13557
616.96	0.14413
617.16	0.143
617.35	0.14017
617.54	0.13602
617.73	0.13391
617.92	0.13488
618.12	0.14214
618.31	0.13934
618.5	0.14138
618.69	0.13758
618.88	0.1474
619.07	0.14206
619.27	0.14377
619.46	0.14469
619.65	0.15068
619.84	0.14196
620.03	0.14071
620.22	0.14852
620.42	0.13436
620.61	0.14991
620.8	0.14664
620.99	0.14492
621.18	0.15225
621.37	0.14348
621.57	0.13576
621.76	0.14708
621.95	0.14525
622.14	0.1388
622.33	0.13546
622.52	0.13997
622.71	0.14526
622.91	0.14766
623.1	0.14554
623.29	0.14375
623.48	0.14036
623.67	0.14573
623.86	0.14512
624.05	0.1441
624.25	0.1382
624.44	0.14553
624.63	0.15005
624.82	0.14563
625.01	0.14224
625.2	0.14845
625.39	0.13729
625.58	0.14539
625.78	0.14751
625.97	0.13473
626.16	0.14052
626.35	0.13925
626.54	0.14693
626.73	0.14702
626.92	0.14275
627.11	0.14201
627.31	0.14104
627.5	0.13984
627.69	0.14513
627.88	0.14795
628.07	0.13068
628.26	0.14136
628.45	0.13886
628.64	0.14175
628.83	0.14096
629.02	0.12951
629.22	0.15117
629.41	0.13979
629.6	0.13214
629.79	0.14833
629.98	0.1403
630.17	0.14611
630.36	0.14483
630.55	0.14535
630.74	0.14741
630.93	0.1523
631.12	0.13956
631.31	0.14079
631.51	0.14945
631.7	0.14748
631.89	0.14025
632.08	0.1428
632.27	0.14557
632.46	0.14299
632.65	0.14393
632.84	0.13687
633.03	0.152
633.22	0.1443
633.41	0.15131
633.6	0.15082
633.79	0.14514
633.98	0.13661
634.17	0.14518
634.37	0.14452
634.56	0.15081
634.75	0.13855
634.94	0.14925
635.13	0.1447
635.32	0.15152
635.51	0.15064
635.7	0.14181
635.89	0.15888
636.08	0.14672
636.27	0.14139
636.46	0.15184
636.65	0.1459
636.84	0.13961
637.03	0.1501
637.22	0.14966
637.41	0.14583
637.6	0.14967
637.79	0.15
637.98	0.14769
638.17	0.14857
638.36	0.14257
638.55	0.1368
638.74	0.13844
638.93	0.14153
639.12	0.13958
639.31	0.14155
639.5	0.13908
639.69	0.13681
639.88	0.1456
640.07	0.13796
640.26	0.14694
640.45	0.14224
640.64	0.14437
640.83	0.14321
641.02	0.14931
641.21	0.14092
641.4	0.12987
641.59	0.14232
641.78	0.14514
641.97	0.14262
642.16	0.14606
642.35	0.14427
642.54	0.1443
642.73	0.14042
642.92	0.12459
643.11	0.14367
643.3	0.14532
643.49	0.13587
643.68	0.13939
643.87	0.13049
644.06	0.13877
644.25	0.13215
644.44	0.13458
644.63	0.13356
644.82	0.13445
645.01	0.13953
645.2	0.13839
645.39	0.13418
645.58	0.13208
645.77	0.13234
645.96	0.14095
646.15	0.13428
646.34	0.13612
646.53	0.13427
646.72	0.13646
646.91	0.12857
647.1	0.14454
647.29	0.13316
647.47	0.13923
647.66	0.13233
647.85	0.12863
648.04	0.12933
648.23	0.12912
648.42	0.14496
648.61	0.12286
648.8	0.13168
648.99	0.13664
649.18	0.12509
649.37	0.13481
649.56	0.13041
649.75	0.12754
649.94	0.1361
650.13	0.13362
650.31	0.13475
650.5	0.12922
650.69	0.13382
650.88	0.12904
651.07	0.13007
651.26	0.13271
651.45	0.14176
651.64	0.13509
651.83	0.12724
652.02	0.1341
652.21	0.13005
652.4	0.1304
652.58	0.14613
652.77	0.1293
652.96	0.12653
653.15	0.13578
653.34	0.13414
653.53	0.13472
653.72	0.13324
653.91	0.12394
654.1	0.12797
654.29	0.12147
654.47	0.13623
654.66	0.11702
654.85	0.12055
655.04	0.11517
655.23	0.12423
655.42	0.11267
655.61	0.12148
655.8	0.1187
655.98	0.12498
656.17	0.12251
656.36	0.12558
656.55	0.11881
656.74	0.13092
656.93	0.12781
657.12	0.12946
657.31	0.12018
657.49	0.13683
657.68	0.1317
657.87	0.11785
658.06	0.13788
658.25	0.12699
658.44	0.13506
658.63	0.12934
658.81	0.12608
659	0.13264
659.19	0.12829
659.38	0.1422
659.57	0.14119
659.76	0.13144
659.95	0.14249
660.13	0.12392
660.32	0.1355
660.51	0.1312
660.7	0.13909
660.89	0.13177
661.08	0.13475
661.26	0.12918
661.45	0.13597
661.64	0.12981
661.83	0.12836
662.02	0.13059
662.21	0.13613
662.39	0.13948
662.58	0.13094
662.77	0.14477
662.96	0.13752
663.15	0.12809
663.33	0.14157
663.52	0.13274
663.71	0.13312
663.9	0.13455
664.09	0.12515
664.28	0.13201
664.46	0.12603
664.65	0.12706
664.84	0.12201
665.03	0.13037
665.22	0.13365
665.4	0.13373
665.59	0.12838
665.78	0.12712
665.97	0.12688
666.16	0.13246
666.34	0.13785
666.53	0.12585
666.72	0.13697
666.91	0.13079
667.09	0.13188
667.28	0.13745
667.47	0.13573
667.66	0.13096
667.85	0.1299
668.03	0.10552
668.22	0.13749
668.41	0.13179
668.6	0.11616
668.78	0.13624
668.97	0.129
669.16	0.12234
669.35	0.135
669.54	0.12035
669.72	0.13522
669.91	0.12772
670.1	0.13125
670.29	0.12974
670.47	0.13565
670.66	0.13924
670.85	0.13103
671.04	0.12129
671.22	0.12112
671.41	0.12962
671.6	0.13137
671.79	0.13231
671.97	0.12569
672.16	0.13979
672.35	0.13493
672.54	0.13492
672.72	0.1283
672.91	0.12209
673.1	0.12803
673.28	0.12439
673.47	0.12621
673.66	0.12714
673.85	0.14053
674.03	0.13375
674.22	0.13294
674.41	0.12588
674.6	0.12639
674.78	0.11484
674.97	0.12135
675.16	0.14392
675.34	0.13393
675.53	0.12667
675.72	0.12144
675.91	0.14203
676.09	0.13197
676.28	0.13841
676.47	0.13391
676.65	0.12153
676.84	0.13123
677.03	0.1375
677.22	0.12691
677.4	0.13641
677.59	0.13193
677.78	0.12697
677.96	0.12937
678.15	0.13555
678.34	0.1444
678.52	0.12627
678.71	0.13049
678.9	0.13224
679.08	0.13591
679.27	0.12744
679.46	0.14416
679.64	0.13534
679.83	0.13063
680.02	0.13271
680.21	0.11658
680.39	0.14108
680.58	0.13376
680.77	0.12993
680.95	0.13172
681.14	0.119
681.33	0.13092
681.51	0.13781
681.7	0.13463
681.89	0.14017
682.07	0.13266
682.26	0.11819
682.44	0.13671
682.63	0.13471
682.82	0.13989
683	0.11639
683.19	0.13058
683.38	0.1355
683.56	0.13908
683.75	0.13472
683.94	0.12224
684.12	0.12215
684.31	0.13481
684.5	0.13715
684.68	0.12574
684.87	0.12505
685.05	0.12879
685.24	0.1158
685.43	0.12408
685.61	0.12304
685.8	0.11304
685.99	0.12322
686.17	0.11096
686.36	0.12537
686.54	0.1245
686.73	0.11851
686.92	0.11994
687.1	0.11445
687.29	0.12427
687.48	0.11276
687.66	0.13065
687.85	0.11552
688.03	0.12082
688.22	0.10997
688.41	0.12458
688.59	0.10939
688.78	0.12625
688.96	0.12976
689.15	0.13751
689.34	0.10966
689.52	0.14154
689.71	0.13009
689.89	0.1374
690.08	0.14679
690.27	0.1367
690.45	0.13238
690.64	0.13184
690.82	0.12511
691.01	0.13696
691.19	0.13164
691.38	0.13658
691.57	0.14216
691.75	0.12992
691.94	0.14405
692.12	0.13394
692.31	0.14477
692.5	0.13613
692.68	0.14239
692.87	0.14953
693.05	0.14275
693.24	0.13067
693.42	0.13664
693.61	0.14422
693.79	0.15092
693.98	0.13769
694.17	0.1454
694.35	0.15635
694.54	0.15629
694.72	0.14925
694.91	0.15044
695.09	0.15087
695.28	0.15233
695.46	0.155
695.65	0.15762
695.83	0.15932
696.02	0.16654
696.21	0.16856
696.39	0.15838
696.58	0.16618
696.76	0.14219
696.95	0.1555
697.13	0.1578
697.32	0.16366
697.5	0.16212
697.69	0.16504
697.87	0.17113
698.06	0.17187
698.24	0.15993
698.43	0.16426
698.61	0.18119
698.8	0.17063
698.98	0.18099
699.17	0.15466
699.35	0.1745
699.54	0.16903
699.72	0.15591
699.91	0.17986
700.09	0.1797
700.28	0.18232
700.46	0.18333
700.65	0.17903
700.83	0.18544
701.02	0.19087
701.2	0.16448
701.39	0.19565
701.57	0.18574
701.76	0.17436
701.94	0.18308
702.13	0.18776
702.31	0.16597
702.5	0.2115
702.68	0.20131
702.87	0.20718
703.05	0.20862
703.24	0.2027
703.42	0.17486
703.61	0.20984
703.79	0.21493
703.98	0.19348
704.16	0.203
704.35	0.19817
704.53	0.20707
704.72	0.20869
704.9	0.21286
705.08	0.19982
705.27	0.22317
705.45	0.22139
705.64	0.22822
705.82	0.22469
706.01	0.22484
706.19	0.2177
706.38	0.22324
706.56	0.23953
706.75	0.23611
706.93	0.22991
707.11	0.21444
707.3	0.23589
707.48	0.2333
707.67	0.22183
707.85	0.22903
708.04	0.23723
708.22	0.23479
708.4	0.22588
708.59	0.22016
708.77	0.2431
708.96	0.23518
709.14	0.24086
709.33	0.23398
709.51	0.24328
709.69	0.24347
709.88	0.24831
710.06	0.24498
710.25	0.23551
710.43	0.24658
710.62	0.25607
710.8	0.24877
710.98	0.25515
711.17	0.25068
711.35	0.25716
711.54	0.26257
711.72	0.24975
711.9	0.26316
712.09	0.26286
712.27	0.24555
712.46	0.25922
712.64	0.24835
712.82	0.26933
713.01	0.27046
713.19	0.26924
713.37	0.25878
713.56	0.2567
713.74	0.27034
713.93	0.26009
714.11	0.25179
714.29	0.23882
714.48	0.26134
714.66	0.2595
714.85	0.24753
715.03	0.25045
715.21	0.24551
715.4	0.23371
715.58	0.23464
715.76	0.22419
715.95	0.23113
716.13	0.2466
716.31	0.23666
716.5	0.23105
716.68	0.2213
716.87	0.2315
717.05	0.23002
717.23	0.21508
717.42	0.22457
717.6	0.21629
717.78	0.22097
717.97	0.22069
718.15	0.21448
718.33	0.2086
718.52	0.21885
718.7	0.2249
718.88	0.21033
719.07	0.23998
719.25	0.22214
719.43	0.23164
719.62	0.22673
719.8	0.22781
719.98	0.24543
720.17	0.23741
720.35	0.23686
720.53	0.25108
720.72	0.25855
720.9	0.24925
721.08	0.243
721.27	0.24995
721.45	0.25044
721.63	0.24904
721.82	0.25928
722	0.24964
722.18	0.24954
722.36	0.26566
722.55	0.25983
722.73	0.26083
722.91	0.25868
723.1	0.26836
723.28	0.25759
723.46	0.23346
723.65	0.25114
723.83	0.2525
724.01	0.24858
724.19	0.26096
724.38	0.26135
724.56	0.26593
724.74	0.2728
724.93	0.24787
725.11	0.25266
725.29	0.27063
725.47	0.26925
725.66	0.26934
725.84	0.26539
726.02	0.27022
726.21	0.28409
726.39	0.27101
726.57	0.27618
726.75	0.27137
726.94	0.28852
727.12	0.27609
727.3	0.27481
727.48	0.26799
727.67	0.28561
727.85	0.27642
728.03	0.28327
728.21	0.29533
728.4	0.27907
728.58	0.29887
728.76	0.28727
728.94	0.29587
729.13	0.30393
729.31	0.28784
729.49	0.30047
729.67	0.30194
729.86	0.30723
730.04	0.29308
730.22	0.31626
730.4	0.31495
730.59	0.31818
730.77	0.32292
730.95	0.33849
731.13	0.33248
731.31	0.33825
731.5	0.32128
731.68	0.353
731.86	0.34305
732.04	0.3517
732.23	0.36523
732.41	0.35655
732.59	0.36413
732.77	0.36766
732.95	0.37064
733.14	0.36344
733.32	0.38507
733.5	0.37635
733.68	0.37538
733.86	0.37519
734.05	0.38436
734.23	0.38735
734.41	0.36439
734.59	0.37781
734.77	0.38253
734.96	0.36191
735.14	0.39327
735.32	0.39019
735.5	0.38938
735.68	0.40653
735.87	0.39389
736.05	0.41561
736.23	0.37999
736.41	0.40944
736.59	0.40288
736.77	0.39655
736.96	0.39451
737.14	0.38162
737.32	0.40786
737.5	0.4151
737.68	0.40947
737.87	0.41552
738.05	0.42935
738.23	0.39806
738.41	0.41293
738.59	0.41889
738.77	0.42505
738.95	0.43616
739.14	0.41136
739.32	0.41366
739.5	0.44088
739.68	0.41682
739.86	0.42743
740.04	0.42523
740.23	0.41118
740.41	0.43745
740.59	0.4414
740.77	0.45026
740.95	0.44091
741.13	0.43446
741.31	0.42997
741.5	0.43399
741.68	0.43021
741.86	0.42735
742.04	0.44756
742.22	0.45464
742.4	0.44768
742.58	0.45477
742.76	0.45939
742.95	0.43197
743.13	0.46734
743.31	0.45945
743.49	0.45435
743.67	0.4721
743.85	0.46811
744.03	0.45819
744.21	0.46672
744.39	0.45108
744.58	0.47478
744.76	0.47284
744.94	0.48716
745.12	0.47582
745.3	0.46586
745.48	0.48265
745.66	0.48904
745.84	0.46576
746.02	0.46568
746.2	0.47593
746.38	0.48486
746.57	0.50104
746.75	0.46071
746.93	0.48824
747.11	0.46754
747.29	0.48079
747.47	0.49466
747.65	0.48867
747.83	0.46202
748.01	0.48276
748.19	0.4871
748.37	0.48404
748.55	0.48474
748.73	0.47406
748.92	0.48753
749.1	0.47544
749.28	0.49345
749.46	0.47867
749.64	0.47112
749.82	0.47763
750	0.49215
750.18	0.48594
750.36	0.46649
750.54	0.48686
750.72	0.49626
750.9	0.49468
751.08	0.48372
751.26	0.4965
751.44	0.49607
751.62	0.50834
751.8	0.49309
751.98	0.49976
752.16	0.50414
752.34	0.50605
752.52	0.51195
752.71	0.48236
752.89	0.47737
753.07	0.50995
753.25	0.47765
753.43	0.51039
753.61	0.48826
753.79	0.51491
753.97	0.50692
754.15	0.51205
754.33	0.52001
754.51	0.52112
754.69	0.52405
754.87	0.51374
755.05	0.51636
755.23	0.53065
755.41	0.54094
755.59	0.46322
755.77	0.51398
755.95	0.50976
756.13	0.48357
756.31	0.51253
756.49	0.51324
756.67	0.4955
756.85	0.48977
757.03	0.47958
757.21	0.47895
757.39	0.4778
757.57	0.47556
757.75	0.44242
757.93	0.412
758.11	0.41422
758.29	0.40386
758.47	0.38238
758.65	0.38018
758.83	0.39661
759.01	0.37293
759.18	0.35152
759.36	0.31131
759.54	0.32861
759.72	0.30313
759.9	0.31403
760.08	0.31094
760.26	0.30794
760.44	0.28395
760.62	0.2652
760.8	0.26552
760.98	0.29815
761.16	0.29752
761.34	0.28248
761.52	0.30763
761.7	0.27891
761.88	0.28563
762.06	0.29008
762.24	0.28714
762.42	0.29278
762.6	0.29554
762.78	0.30602
762.95	0.30262
763.13	0.32025
763.31	0.33074
763.49	0.32225
763.67	0.33301
763.85	0.31613
764.03	0.35748
764.21	0.34049
764.39	0.36404
764.57	0.38909
764.75	0.38445
764.93	0.42211
765.11	0.39612
765.28	0.42858
765.46	0.42796
765.64	0.42557
765.82	0.44379
766	0.45835
766.18	0.46535
766.36	0.46839
766.54	0.46999
766.72	0.48159
766.9	0.51722
767.07	0.47776
767.25	0.50272
767.43	0.51304
767.61	0.53306
767.79	0.53627
767.97	0.53306
768.15	0.52498
768.33	0.51549
768.51	0.54142
768.68	0.54395
768.86	0.53036
769.04	0.53642
769.22	0.57481
769.4	0.57099
769.58	0.55288
769.76	0.58991
769.94	0.58525
770.11	0.56155
770.29	0.57353
770.47	0.57139
770.65	0.57612
770.83	0.57462
771.01	0.5902
771.19	0.58716
771.36	0.56437
771.54	0.58735
771.72	0.57215
771.9	0.5529
772.08	0.57773
772.26	0.59289
772.44	0.55539
772.61	0.57804
772.79	0.55185
772.97	0.58317
773.15	0.5991
773.33	0.56115
773.51	0.58444
773.68	0.56023
773.86	0.55049
774.04	0.56555
774.22	0.54594
774.4	0.55932
774.58	0.57241
774.75	0.56764
774.93	0.53974
775.11	0.57962
775.29	0.55622
775.47	0.53893
775.64	0.57152
775.82	0.55542
776	0.56391
776.18	0.54266
776.36	0.54564
776.53	0.58233
776.71	0.54605
776.89	0.5414
777.07	0.55918
777.25	0.55414
777.42	0.55387
777.6	0.53807
777.78	0.55844
777.96	0.54597
778.14	0.56415
778.31	0.54582
778.49	0.51508
778.67	0.52442
778.85	0.53508
779.03	0.54811
779.2	0.54466
779.38	0.53681
779.56	0.51751
779.74	0.54767
779.91	0.52905
780.09	0.52461
780.27	0.50677
780.45	0.51971
780.62	0.53216
780.8	0.53937
780.98	0.50752
781.16	0.49213
781.34	0.52877
781.51	0.5342
781.69	0.53926
781.87	0.53148
782.05	0.52373
782.22	0.52701
782.4	0.51679
782.58	0.52663
782.76	0.50613
782.93	0.53201
783.11	0.54572
783.29	0.51133
783.47	0.51302
783.64	0.52432
783.82	0.50888
784	0.48599
784.17	0.50721
784.35	0.51307
784.53	0.50193
784.71	0.51652
784.88	0.50022
785.06	0.52773
785.24	0.50047
785.42	0.51724
785.59	0.50616
785.77	0.47272
785.95	0.48986
786.12	0.46977
786.3	0.49056
786.48	0.48653
786.65	0.47739
786.83	0.4854
787.01	0.48971
787.19	0.47984
787.36	0.48668
787.54	0.47564
787.72	0.48335
787.89	0.47948
788.07	0.47294
788.25	0.46752
788.42	0.45935
788.6	0.48423
788.78	0.46254
788.96	0.46626
789.13	0.44804
789.31	0.4536
789.49	0.45327
789.66	0.47106
789.84	0.44869
790.02	0.42249
790.19	0.44481
790.37	0.45575
790.55	0.44705
790.72	0.44904
790.9	0.47295
791.08	0.43864
791.25	0.44433
791.43	0.44858
791.61	0.43508
791.78	0.43365
791.96	0.40898
792.14	0.43478
792.31	0.44936
792.49	0.40852
792.67	0.4589
792.84	0.42472
793.02	0.42808
793.19	0.42074
793.37	0.44592
793.55	0.44656
793.72	0.43901
793.9	0.40945
794.08	0.42865
794.25	0.43205
794.43	0.4144
794.61	0.43161
794.78	0.43047
794.96	0.40599
795.13	0.42924
795.31	0.4363
795.49	0.40765
795.66	0.43069
795.84	0.42084
796.01	0.42715
796.19	0.41243
796.37	0.43405
796.54	0.42587
796.72	0.43421
796.9	0.42022
797.07	0.40172
797.25	0.42148
797.42	0.43695
797.6	0.43239
797.78	0.41915
797.95	0.40328
798.13	0.39253
798.3	0.41913
798.48	0.41239
798.66	0.43249
798.83	0.39394
799.01	0.41536
799.18	0.40088
799.36	0.42835
799.53	0.37691
799.71	0.41913
799.89	0.39733
800.06	0.39859
800.24	0.39981
800.41	0.37163
800.59	0.41348
800.76	0.37848
800.94	0.37968
801.12	0.402
801.29	0.39705
801.47	0.40793
801.64	0.37719
801.82	0.40361
801.99	0.39999
802.17	0.39827
802.34	0.38996
802.52	0.38764
802.7	0.39917
802.87	0.37148
803.05	0.35903
803.22	0.4065
803.4	0.37928
803.57	0.37986
803.75	0.40638
803.92	0.38799
804.1	0.35877
804.27	0.36356
804.45	0.38072
804.63	0.37207
804.8	0.36266
804.98	0.38299
805.15	0.34941
805.33	0.39957
805.5	0.40626
805.68	0.39913
805.85	0.41246
806.03	0.39393
806.2	0.40106
806.38	0.34873
806.55	0.36297
806.73	0.41284
806.9	0.3853
807.08	0.37603
807.25	0.35268
807.43	0.38241
807.6	0.39515
807.78	0.36418
807.95	0.34039
808.13	0.35559
808.3	0.34851
808.48	0.38069
808.65	0.36693
808.83	0.39527
809	0.36704
809.18	0.39495
809.35	0.34648
809.53	0.38022
809.7	0.36132
809.88	0.36224
810.05	0.35821
810.23	0.37298
810.4	0.35852
810.57	0.35556
810.75	0.33447
810.92	0.33012
811.1	0.33409
811.27	0.3107
811.45	0.32394
811.62	0.31142
811.8	0.29659
811.97	0.31833
812.15	0.3188
812.32	0.31753
812.5	0.27601
812.67	0.34266
812.84	0.28204
813.02	0.30587
813.19	0.29847
813.37	0.30191
813.54	0.2772
813.72	0.28716
813.89	0.26162
814.07	0.28281
814.24	0.28658
814.41	0.29161
814.59	0.25802
814.76	0.25148
814.94	0.27138
815.11	0.28004
815.29	0.21753
815.46	0.23039
815.63	0.24477
815.81	0.24746
815.98	0.20271
816.16	0.21103
816.33	0.25435
816.5	0.27022
816.68	0.25031
816.85	0.23428
817.03	0.25468
817.2	0.24197
817.37	0.25923
817.55	0.24003
817.72	0.25139
817.9	0.22046
818.07	0.24638
818.24	0.21156
818.42	0.22822
818.59	0.22838
818.77	0.23185
818.94	0.25992
819.11	0.22203
819.29	0.26351
819.46	0.25673
819.64	0.21311
819.81	0.27527
819.98	0.26452
820.16	0.23136
820.33	0.25679
820.5	0.25362
820.68	0.22716
820.85	0.25187
821.02	0.23933
821.2	0.21579
821.37	0.24572
821.55	0.20497
821.72	0.23264
821.89	0.23867
822.07	0.26135
822.24	0.25879
822.41	0.20482
822.59	0.27429
822.76	0.2714
822.93	0.23105
823.11	0.24395
823.28	0.25946
823.45	0.23953
823.63	0.24126
823.8	0.26416
823.97	0.2011
824.15	0.26622
824.32	0.23845
824.49	0.28929
824.67	0.24577
824.84	0.26302
825.01	0.25999
825.19	0.25991
825.36	0.25593
825.53	0.27816
825.71	0.26594
825.88	0.2698
826.05	0.23185
826.23	0.26477
826.4	0.24354
826.57	0.24613
826.75	0.23313
826.92	0.21255
827.09	0.21112
827.26	0.27603
827.44	0.2467
827.61	0.2771
827.78	0.25708
827.96	0.20887
828.13	0.27593
828.3	0.25285
828.48	0.24027
828.65	0.23373
828.82	0.23731
828.99	0.23921
829.17	0.24629
829.34	0.19504
829.51	0.24036
829.68	0.27423
829.86	0.26178
830.03	0.2415
830.2	0.25738
830.38	0.24672
830.55	0.21941
830.72	0.25555
830.89	0.21318
831.07	0.21214
831.24	0.21239
831.41	0.22328
831.58	0.25076
831.76	0.27482
831.93	0.25393
832.1	0.25186
832.27	0.20475
832.45	0.20674
832.62	0.24557
832.79	0.2239
832.96	0.2514
833.14	0.20462
833.31	0.27074
833.48	0.24206
833.65	0.21978
833.83	0.26909
834	0.27659
834.17	0.24108
834.34	0.25942
834.51	0.24025
834.69	0.22527
834.86	0.2698
835.03	0.23979
835.2	0.26774
835.38	0.24356
835.55	0.24904
835.72	0.23585
835.89	0.30196
836.06	0.23293
836.24	0.23277
836.41	0.21136
836.58	0.26508
836.75	0.2588
836.92	0.24939
837.1	0.22297
837.27	0.24098
837.44	0.21969
837.61	0.27359
837.78	0.22653
837.96	0.25222
838.13	0.23627
838.3	0.26162
838.47	0.24659
838.64	0.23594
838.82	0.23253
838.99	0.28183
839.16	0.22915
839.33	0.23344
839.5	0.27637
839.67	0.25285
839.85	0.20278
840.02	0.24546
840.19	0.22475
840.36	0.27141
840.53	0.21291
840.7	0.20741
840.88	0.2605
841.05	0.27549
841.22	0.2507
841.39	0.24951
841.56	0.2559
841.73	0.24567
841.91	0.27074
842.08	0.26651
842.25	0.25814
842.42	0.26952
842.59	0.25523
842.76	0.30431
842.93	0.26009
843.11	0.27338
843.28	0.25957
843.45	0.2632
843.62	0.22996
843.79	0.24104
843.96	0.29105
844.13	0.26148
844.3	0.25923
844.48	0.28713
844.65	0.22576
844.82	0.20011
844.99	0.23595
845.16	0.23209
845.33	0.23912
845.5	0.2382
845.67	0.20437
845.84	0.2382
846.02	0.21567
846.19	0.23772
846.36	0.2381
846.53	0.27993
846.7	0.24495
846.87	0.19101
847.04	0.24633
847.21	0.24373
847.38	0.24429
847.55	0.24444
847.73	0.21123
847.9	0.2271
848.07	0.1999
848.24	0.2129
848.41	0.20026
848.58	0.29687
848.75	0.22076
848.92	0.27669
849.09	0.23078
849.26	0.21509
849.43	0.20011
849.6	0.22545
849.77	0.2549
849.94	0.13789
850.12	0.25839
850.29	0.23492
850.46	0.2228
850.63	0.21086
850.8	0.2367
850.97	0.23034
851.14	0.18752
851.31	0.15709
851.48	0.19823
851.65	0.21114
851.82	0.2445
851.99	0.23225
852.16	0.15587
852.33	0.21786
852.5	0.19523
852.67	0.20814
852.84	0.22078
853.01	0.19613
853.18	0.22206
853.35	0.17723
853.52	0.25444
853.69	0.20144
853.86	0.16719
854.03	0.16068
854.21	0.21328
854.38	0.19902
854.55	0.225
854.72	0.23247
854.89	0.17369
855.06	0.13628
855.23	0.19637
855.4	0.23951
855.57	0.16628
855.74	0.18719
855.91	0.19934
856.08	0.16409
856.25	0.19774
856.42	0.18591
856.59	0.18527
856.76	0.19949
856.93	0.19543
857.1	0.19112
857.27	0.24539
857.44	0.20792
857.61	0.20666
857.77	0.16881
857.94	0.17248
858.11	0.16561
858.28	0.23368
858.45	0.16518
858.62	0.20701
858.79	0.18443
858.96	0.18791
859.13	0.19136
859.3	0.21983
859.47	0.17902
859.64	0.13655
859.81	0.22229
859.98	0.22682
860.15	0.19639
860.32	0.17673
860.49	0.27318
860.66	0.21073
860.83	0.22119
861	0.20877
861.17	0.21797
861.34	0.22164
861.51	0.13961
861.68	0.22317
861.84	0.20616
862.01	0.17176
862.18	0.18432
862.35	0.21337
862.52	0.21357
862.69	0.19078
862.86	0.20808
863.03	0.22299
863.2	0.20506
863.37	0.20866
863.54	0.16445
863.71	0.16534
863.88	0.18829
864.05	0.17966
864.21	0.20894
864.38	0.15238
864.55	0.13933
864.72	0.22239
864.89	0.18176
865.06	0.22022
865.23	0.17375
865.4	0.14464
865.57	0.22031
865.74	0.18922
865.9	0.19515
866.07	0.19031
866.24	0.13463
866.41	0.12504
866.58	0.14466
866.75	0.15351
866.92	0.16199
867.09	0.16398
867.26	0.16871
867.42	0.12749
867.59	0.10169
867.76	0.17818
867.93	0.14339
868.1	0.15993
868.27	0.089885
868.44	0.16185
868.6	0.17897
868.77	0.17195
868.94	0.15395
869.11	0.14927
869.28	0.18799
869.45	0.10476
869.62	0.17264
869.78	0.15296
869.95	0.11539
870.12	0.13932
870.29	0.16372
870.46	0.17298
870.63	0.13288
870.8	0.097232
870.96	0.13325
871.13	0.12414
871.3	0.16331
871.47	0.16896
871.64	0.16601
871.81	0.06507
871.97	0.1865
872.14	0.095215
872.31	0.077875
872.48	0.11349
872.65	0.1581
872.81	0.11753
872.98	0.17253
873.15	0.15249
873.32	0.15136
873.49	0.11882
873.66	0.15051
873.82	0.12686
873.99	0.10041
874.16	0.13771
874.33	0.11184
874.5	0.15105
874.66	0.12091
874.83	0.13102
875	0.12257
875.17	0.058506
875.34	0.1552
875.5	0.11147
875.67	0.09843
875.84	0.11627
876.01	0.09844
876.17	0.079274
876.34	0.082191
876.51	0.16513
876.68	0.14618
876.85	0.13219
877.01	0.15621
877.18	0.10831
877.35	0.12672
877.52	0.12519
877.68	0.15234
877.85	0.11556
878.02	0.13197
878.19	0.1162
878.35	0.13375
878.52	0.12494
878.69	0.13731
878.86	0.08649
879.02	0.11513
879.19	0.07525
879.36	0.096568
879.53	0.041288
879.69	0.090944
879.86	0.14357
880.03	0.13314
880.2	0.083863
880.36	0.14101
880.53	0.073381
880.7	0.14195
880.87	0.093456
881.03	0.093772
881.2	0.036029
881.37	0.085751
881.54	0.10255
881.7	0.13511
881.87	0.078618
882.04	0.08439
882.2	0.088015
882.37	0.043026
882.54	0.10657
882.71	0.10236
882.87	0.13988
883.04	0.085619
883.21	0.084891
883.37	0.066241
883.54	0.086416
883.71	0.072949
883.87	0.048918
884.04	0.12593
884.21	0.077739
884.38	0.05609
884.54	0.13653
884.71	0.1364
884.88	0.074042
885.04	0.093371
885.21	0.061284
885.38	0.059572
885.54	0.14656
885.71	0.065408
885.88	0.094156
886.04	0.080542
886.21	0.082994
886.38	0.058235
886.54	0.069865
886.71	0.041376
886.88	0.11807
887.04	0.021684
887.21	0.055894
887.38	0.099841
887.54	0.050907
887.71	0.044154
887.88	0.061302
888.04	0.068229
888.21	0.11273
888.38	0.093349
888.54	0.086626
888.71	0.027445
888.87	0.022877
889.04	0.022877
>>>>>End Processed Spectral Data<<<<<	
